Patient/patient:{"resourceType": "Bundle", "meta": {"security": [{"system": "http://terminology.hl7.org/CodeSystem/v3-ObservationValue", "code": "PSEUDED","display": "pseudonymized"}]}, "type": "transaction", "entry": [{"fullUrl": "Patient/patient", "resource": {"resourceType": "Patient", "id": "patient", "meta": {"source": "xxx.yyy.zzz:1.11.111", "profile": ["https://fhir.miracum.org/core/StructureDefinition/PatientIn"],"security": [{"system": "http://terminology.hl7.org/CodeSystem/v3-ObservationValue", "code": "PSEUDED","display": "pseudonymized"}]},"identifier": [{"use": "official","type": {"coding": [{"system": "http://terminology.hl7.org/CodeSystem/v2-0203", "code": "MR"}]},"system": "https://xxx-yyy-zzz/identifiers/patient-id", "value": "psn-pid.000000000000000000000001"}],"gender": "female","birthDate": "1990-01-01", "address": [{"type": "both", "city": "Stadt", "postalCode": "12345","country": "DE"}]},"request": {"method": "PUT", "url": "Patient/patient"}}]}
Condition/condition:{"resourceType": "Bundle", "meta": {"security": [{"system": "http://terminology.hl7.org/CodeSystem/v3-ObservationValue", "code": "PSEUDED","display": "pseudonymized"}]},"type": "transaction","entry": [{"fullUrl": "Condition/condition", "resource": {"resourceType": "Condition","id": "condition", "meta": {"source": "xxx.yyy.zzz:1.11.111", "profile": ["https://fhir.miracum.org/core/StructureDefinition/Diagnose"],"security": [{"system": "http://terminology.hl7.org/CodeSystem/v3-ObservationValue", "code": "PSEUDED","display": "pseudonymized"}]},"identifier": [{"use": "official","system": "https://xxx-yyy-zzz/identifiers/surrogate-condition-id", "value": "surrogate-condition-id"}],"verificationStatus": {"coding": [{"system": "http://terminology.hl7.org/CodeSystem/condition-ver-status","code": "confirmed"}]},"code": {"coding": [{"system": "http://fhir.de/CodeSystem/dimdi/icd-10-gm","version": "2017","code": "H57.0"}]},"subject": {"reference": "Patient/patient", "identifier": {"type": {"coding": [{"system": "http://terminology.hl7.org/CodeSystem/v2-0203", "code": "MR"}]},"system": "https://xxx-yyy-zzz/identifiers/patient-id", "value": "psn-pid.000000000000000000000001"}},"encounter": {"reference": "Encounter/encounter", "identifier": {"type": {"coding": [{"system": "http://terminology.hl7.org/CodeSystem/v2-0203","code": "VN"}]},"system": "https://xxx-yyy-zzz/identifiers/encounter-id", "value": "psn-eid.000000000000000000000001"}}, "onsetDateTime": "2021-11-09T06:20:19+00:00", "recordedDate": "2021-11-09T06:20:19+00:00"},"request": {"method": "PUT","url": "Condition/condition"}}]}
Condition/condition:{"resourceType": "Bundle", "meta": {"security": [{"system": "http://terminology.hl7.org/CodeSystem/v3-ObservationValue", "code": "PSEUDED","display": "pseudonymized"}]},"type": "transaction","entry": [{"fullUrl": "Condition/condition", "resource": {"resourceType": "Condition","id": "condition", "meta": {"source": "xxx.yyy.zzz:1.11.111", "profile": ["https://fhir.miracum.org/core/StructureDefinition/Diagnose"],"security": [{"system": "http://terminology.hl7.org/CodeSystem/v3-ObservationValue", "code": "PSEUDED","display": "pseudonymized"}]},"identifier": [{"use": "official","system": "https://xxx-yyy-zzz/identifiers/surrogate-condition-id", "value": "surrogate-condition-id"}],"verificationStatus": {"coding": [{"system": "http://terminology.hl7.org/CodeSystem/condition-ver-status","code": "confirmed"}]},"code": {"coding": [{"system": "http://fhir.de/CodeSystem/dimdi/icd-10-gm","version": "2017","code": "H57.0"}]},"subject": {"reference": "Patient/patient", "identifier": {"type": {"coding": [{"system": "http://terminology.hl7.org/CodeSystem/v2-0203", "code": "MR"}]},"system": "https://xxx-yyy-zzz/identifiers/patient-id", "value": "psn-pid.000000000000000000000001"}},"encounter": {"reference": "Encounter/encounter", "identifier": {"type": {"coding": [{"system": "http://terminology.hl7.org/CodeSystem/v2-0203","code": "VN"}]},"system": "https://xxx-yyy-zzz/identifiers/encounter-id", "value": "psn-eid.000000000000000000000002"}}, "onsetDateTime": "2021-11-09T06:20:19+00:00", "recordedDate": "2021-11-09T06:20:19+00:00"},"request": {"method": "PUT","url": "Condition/condition"}}]}
Procedure/procedure:{"resourceType": "Bundle","meta": {"security": [{"system": "http://terminology.hl7.org/CodeSystem/v3-ObservationValue", "code": "PSEUDED","display": "pseudonymized"}]},"type": "transaction","entry": [{"fullUrl": "Procedure/procedure", "resource": {"resourceType": "Procedure", "id": "procedure", "meta": {"source": "xxx.yyy.zzz:1.11.111","profile": ["https://www.medizininformatik-initiative.de/fhir/core/modul-prozedur/StructureDefinition/Procedure"],"security": [{"system": "http://terminology.hl7.org/CodeSystem/v3-ObservationValue","code": "PSEUDED","display": "pseudonymized"}]},"identifier": [{"use": "official","system": "https://xxx-yyy-zzz/identifiers/surrogate-procedure-id","value": "kdb-surrogate-procedure-id"}],"status": "completed","category": {"coding": [{"system": "http://snomed.info/sct","code": "387713003","display": "Surgical procedure"}]},"code": {"coding": [{"system": "http://fhir.de/CodeSystem/dimdi/ops", "version": "2020","code": "5-399.7"}]},"subject": {"reference": "Patient/patient", "identifier": {"type": {"coding": [{"system": "http://terminology.hl7.org/CodeSystem/v2-0203", "code": "MR"}]},"system": "https://xxx-yyy-zzz/identifiers/patient-id", "value": "psn-pid.000000000000000000000001"}},"encounter": {"reference": "Encounter/encounter", "identifier": {"type": {"coding": [{"system": "http://terminology.hl7.org/CodeSystem/v2-0203", "code": "VN"}]},"system": "https://xxx-yyy-zzz/identifiers/encounter-id", "value": "psn-eid.000000000000000000000001"}},"performedDateTime": "2021-11-09T13:07:00+00:00"},"request": {"method": "PUT","url": "Procedure/abc"}}]}
Encounter/encounter:{"resourceType": "Bundle", "meta": {"security": [{"system": "http://terminology.hl7.org/CodeSystem/v3-ObservationValue", "code": "PSEUDED","display": "pseudonymized"}]},"type": "transaction", "entry": [{"fullUrl": "Encounter/encounter", "resource": {"resourceType": "Encounter", "id": "encounter", "meta": {"source": "xxx.yyy.zzz:1.11.111", "profile": ["https://fhir.miracum.org/core/StructureDefinition/Versorgungsfall"],"security": [{"system": "http://terminology.hl7.org/CodeSystem/v3-ObservationValue", "code": "PSEUDED","display": "pseudonymized"}]},"identifier": [{"use": "official", "type": {"coding": [{"system": "http://terminology.hl7.org/CodeSystem/v2-0203", "code": "VN"}]},"system": "https://xxx-yyy-zzz/identifiers/encounter-id", "value": "psn-eid.000000000000000000000001","assigner": {"reference": "Organization/organization"}}],"status": "in-progress","class": {"system": "https://www.medizininformatik-initiative.de/fhir/core/modul-fall/CodeSystem/Versorgungsfallklasse", "code": "ambulant","display": "Ambulant"},"serviceType": {"coding": [{"system": "https://fhir.miracum.org/core/CodeSystem/fachabteilungen", "code": "2200"},{"system": "https://www.medizininformatik-initiative.de/fhir/core/modul-fall/CodeSystem/Fachabteilungsschluessel", "code": "2200"}]},"subject": {"reference": "Patient/patient", "identifier": {"type": {"coding": [{"system": "http://terminology.hl7.org/CodeSystem/v2-0203", "code": "MR"}]},"system": "https://xxx-yyy-zzz/identifiers/patient-id", "value": "psn-pid.000000000000000000000001"}},"period": {"start": "2021-11-09T05:41:53+00:00"},"diagnosis": [{"extension": [{"url": "http://hl7.org/fhir/StructureDefinition/data-absent-reason","valueCode": "unknown"}]}],"location": [{"location": {"reference": "Location/location", "identifier": {"system": "https://xxx-yyy-zzz/identifiers/orgeinheit-kuerzel","value": "UR"},"display": "Urologie"},"period": {"start": "2021-11-09T05:41:53+00:00"}}]},"request": {"method": "PUT","url": "Encounter/encounter"}},{"fullUrl": "Location/location","resource": {"resourceType": "Location","id": "location","identifier": [{"system": "https://xxx-yyy-zzz/identifiers/orgeinheit-kuerzel", "value": "UR"}],"name": "Urologie","alias": ["UR"],"telecom": [{"system": "phone","value": "phone nr","use": "work"},{"system": "fax","value": "fax nr","use": "work"}],"address": {"line": ["Adresse"]}},"request": {"method": "PUT","url": "Location/location"}}]}
